Start.keys,Start.rt,Interval_stimulus,key_resp.keys,Response.keys,Response.rt,trials.thisRepN,trials.thisTrialN,trials.thisN,trials.thisIndex,trials.ran,"Participant ID (Your initials and the last 5 digits of your phone number, example: JS45323)",Session,date,expName,psychopyVersion,OS,frameRate,key_resp.rt
space,2.13828,2.091334627,,space,0.817335,0,0,0,0,1,BC48907,2,2020-06-01_05h42.33.910,PVT builder,2020.1.3,Win32,60,
,,9.080332593,,space,0.41979,1,0,1,0,1,BC48907,2,2020-06-01_05h42.33.910,PVT builder,2020.1.3,Win32,60,
,,7.877969275,,space,0.4293,2,0,2,0,1,BC48907,2,2020-06-01_05h42.33.910,PVT builder,2020.1.3,Win32,60,
,,9.079902339,,space,0.849725,3,0,3,0,1,BC48907,2,2020-06-01_05h42.33.910,PVT builder,2020.1.3,Win32,60,
,,9.415202752,,space,0.46103,4,0,4,0,1,BC48907,2,2020-06-01_05h42.33.910,PVT builder,2020.1.3,Win32,60,
,,3.009414974,,space,0.425335,5,0,5,0,1,BC48907,2,2020-06-01_05h42.33.910,PVT builder,2020.1.3,Win32,60,
,,4.314612012,"[""space"",""space""]",space,0.5441,6,0,6,0,1,BC48907,2,2020-06-01_05h42.33.910,PVT builder,2020.1.3,Win32,60,"[0.5147299999371171,3.660509999957867]"
,,9.154026203,"[""space"",""space"",""space""]",space,0.9422,7,0,7,0,1,BC48907,2,2020-06-01_05h42.33.910,PVT builder,2020.1.3,Win32,60,"[0.9227899999823421,3.419264999916777,7.413594999932684]"
,,2.593956763,,space,0.157625,8,0,8,0,1,BC48907,2,2020-06-01_05h42.33.910,PVT builder,2020.1.3,Win32,60,
,,5.106554868,"[""space""]",space,0.475995,9,0,9,0,1,BC48907,2,2020-06-01_05h42.33.910,PVT builder,2020.1.3,Win32,60,[2.1688550000544637]
,,4.354278507,,space,0.31956,10,0,10,0,1,BC48907,2,2020-06-01_05h42.33.910,PVT builder,2020.1.3,Win32,60,
,,8.784659099,"[""space"",""space"",""space"",""space"",""space""]",space,0.485245,11,0,11,0,1,BC48907,2,2020-06-01_05h42.33.910,PVT builder,2020.1.3,Win32,60,"[0.7615399999776855,2.2690899999579415,3.893225000007078,4.723119999980554,6.461239999975078]"
,,4.249510591,"[""space""]",space,0.35531,12,0,12,0,1,BC48907,2,2020-06-01_05h42.33.910,PVT builder,2020.1.3,Win32,60,[0.4860900000203401]
,,3.860645801,"[""space""]",space,0.690755,13,0,13,0,1,BC48907,2,2020-06-01_05h42.33.910,PVT builder,2020.1.3,Win32,60,[1.4869399999734014]
,,4.356996729,,space,0.410005,14,0,14,0,1,BC48907,2,2020-06-01_05h42.33.910,PVT builder,2020.1.3,Win32,60,
,,4.308124909,"[""space""]",space,0.00177,15,0,15,0,1,BC48907,2,2020-06-01_05h42.33.910,PVT builder,2020.1.3,Win32,60,[2.4446849999949336]
,,6.629076144,"[""space"",""space""]",space,0.373985,16,0,16,0,1,BC48907,2,2020-06-01_05h42.33.910,PVT builder,2020.1.3,Win32,60,"[0.1385149999987334,3.1156000000191852]"
,,3.987622171,,space,0.57021,17,0,17,0,1,BC48907,2,2020-06-01_05h42.33.910,PVT builder,2020.1.3,Win32,60,
,,9.653256845,"[""space"",""space""]",space,0.31956,18,0,18,0,1,BC48907,2,2020-06-01_05h42.33.910,PVT builder,2020.1.3,Win32,60,"[6.769154999987222,7.354004999971949]"
,,7.677389232,,space,0.41136,19,0,19,0,1,BC48907,2,2020-06-01_05h42.33.910,PVT builder,2020.1.3,Win32,60,
,,7.136619642,,space,0.40097,20,0,20,0,1,BC48907,2,2020-06-01_05h42.33.910,PVT builder,2020.1.3,Win32,60,
,,9.583665648,,space,0.73828,21,0,21,0,1,BC48907,2,2020-06-01_05h42.33.910,PVT builder,2020.1.3,Win32,60,
,,7.932208593,,space,0.337055,22,0,22,0,1,BC48907,2,2020-06-01_05h42.33.910,PVT builder,2020.1.3,Win32,60,
,,2.203128377,,space,0.42073,23,0,23,0,1,BC48907,2,2020-06-01_05h42.33.910,PVT builder,2020.1.3,Win32,60,
,,3.583938418,,space,0.474465,24,0,24,0,1,BC48907,2,2020-06-01_05h42.33.910,PVT builder,2020.1.3,Win32,60,
,,3.939276211,,space,0.35163,25,0,25,0,1,BC48907,2,2020-06-01_05h42.33.910,PVT builder,2020.1.3,Win32,60,
,,2.117601148,,space,0.38997,26,0,26,0,1,BC48907,2,2020-06-01_05h42.33.910,PVT builder,2020.1.3,Win32,60,
,,5.69629071,,space,0.30138,27,0,27,0,1,BC48907,2,2020-06-01_05h42.33.910,PVT builder,2020.1.3,Win32,60,
,,7.557770969,,space,0.301405,28,0,28,0,1,BC48907,2,2020-06-01_05h42.33.910,PVT builder,2020.1.3,Win32,60,
,,7.969709365,,space,0.38862,29,0,29,0,1,BC48907,2,2020-06-01_05h42.33.910,PVT builder,2020.1.3,Win32,60,
,,6.910022769,,space,0.285875,30,0,30,0,1,BC48907,2,2020-06-01_05h42.33.910,PVT builder,2020.1.3,Win32,60,
,,9.68151267,,space,0.30103,31,0,31,0,1,BC48907,2,2020-06-01_05h42.33.910,PVT builder,2020.1.3,Win32,60,
,,8.114050134,,space,0.293705,32,0,32,0,1,BC48907,2,2020-06-01_05h42.33.910,PVT builder,2020.1.3,Win32,60,
,,3.702157077,,space,0.370645,33,0,33,0,1,BC48907,2,2020-06-01_05h42.33.910,PVT builder,2020.1.3,Win32,60,
,,4.381349135,,space,0.38364,34,0,34,0,1,BC48907,2,2020-06-01_05h42.33.910,PVT builder,2020.1.3,Win32,60,
,,9.693875151,,space,0.310295,35,0,35,0,1,BC48907,2,2020-06-01_05h42.33.910,PVT builder,2020.1.3,Win32,60,
,,4.37238582,,space,0.356865,36,0,36,0,1,BC48907,2,2020-06-01_05h42.33.910,PVT builder,2020.1.3,Win32,60,
,,5.86535894,,space,0.38488,37,0,37,0,1,BC48907,2,2020-06-01_05h42.33.910,PVT builder,2020.1.3,Win32,60,
,,7.887937103,,space,0.339315,38,0,38,0,1,BC48907,2,2020-06-01_05h42.33.910,PVT builder,2020.1.3,Win32,60,
,,9.117298346,,space,0.49385,39,0,39,0,1,BC48907,2,2020-06-01_05h42.33.910,PVT builder,2020.1.3,Win32,60,
