Start.keys,Start.rt,Interval_stimulus,key_resp.keys,key_resp.rt,Response.keys,Response.rt,trials.thisRepN,trials.thisTrialN,trials.thisN,trials.thisIndex,trials.ran,"Participant ID (Your initials and the last 5 digits of your phone number, example: JS45323)",Session,date,expName,psychopyVersion,OS,frameRate
space,4.6941,9.436410189,"[""space""]",[9.305399999999995],space,0.6517,0,0,0,0,1,CA30802,2,2020-05-26_09h27.26.708,PVT builder,2020.1.3,Win32,60
,,4.65410204,,,space,0.2844,1,0,1,0,1,CA30802,2,2020-05-26_09h27.26.708,PVT builder,2020.1.3,Win32,60
,,5.371996565,,,space,0.284,2,0,2,0,1,CA30802,2,2020-05-26_09h27.26.708,PVT builder,2020.1.3,Win32,60
,,4.467242792,,,space,0.2629,3,0,3,0,1,CA30802,2,2020-05-26_09h27.26.708,PVT builder,2020.1.3,Win32,60
,,2.90145346,"[""space""]",[0.5172999999999916],space,0.322,4,0,4,0,1,CA30802,2,2020-05-26_09h27.26.708,PVT builder,2020.1.3,Win32,60
,,5.994088329,,,space,0.2542,5,0,5,0,1,CA30802,2,2020-05-26_09h27.26.708,PVT builder,2020.1.3,Win32,60
,,5.935882379,,,space,0.2196,6,0,6,0,1,CA30802,2,2020-05-26_09h27.26.708,PVT builder,2020.1.3,Win32,60
,,5.809951376,,,space,0.2891,7,0,7,0,1,CA30802,2,2020-05-26_09h27.26.708,PVT builder,2020.1.3,Win32,60
,,6.400913636,,,space,0.3514,8,0,8,0,1,CA30802,2,2020-05-26_09h27.26.708,PVT builder,2020.1.3,Win32,60
,,3.783571235,,,space,0.2376,9,0,9,0,1,CA30802,2,2020-05-26_09h27.26.708,PVT builder,2020.1.3,Win32,60
,,9.739058393,,,space,0.2671,10,0,10,0,1,CA30802,2,2020-05-26_09h27.26.708,PVT builder,2020.1.3,Win32,60
,,3.590362595,,,space,0.3635,11,0,11,0,1,CA30802,2,2020-05-26_09h27.26.708,PVT builder,2020.1.3,Win32,60
,,5.093132115,,,space,0.3167,12,0,12,0,1,CA30802,2,2020-05-26_09h27.26.708,PVT builder,2020.1.3,Win32,60
,,8.461337138,"[""space""]",[3.3525999999999953],space,0.2784,13,0,13,0,1,CA30802,2,2020-05-26_09h27.26.708,PVT builder,2020.1.3,Win32,60
,,5.285190148,,,space,0.3614,14,0,14,0,1,CA30802,2,2020-05-26_09h27.26.708,PVT builder,2020.1.3,Win32,60
,,4.623753422,,,space,0.3059,15,0,15,0,1,CA30802,2,2020-05-26_09h27.26.708,PVT builder,2020.1.3,Win32,60
,,4.833256855,,,space,0.274,16,0,16,0,1,CA30802,2,2020-05-26_09h27.26.708,PVT builder,2020.1.3,Win32,60
,,2.060239167,,,space,0.3511,17,0,17,0,1,CA30802,2,2020-05-26_09h27.26.708,PVT builder,2020.1.3,Win32,60
,,5.666472712,,,space,0.2509,18,0,18,0,1,CA30802,2,2020-05-26_09h27.26.708,PVT builder,2020.1.3,Win32,60
,,9.872012094,,,space,0.2896,19,0,19,0,1,CA30802,2,2020-05-26_09h27.26.708,PVT builder,2020.1.3,Win32,60
,,5.562564121,,,space,0.3182,20,0,20,0,1,CA30802,2,2020-05-26_09h27.26.708,PVT builder,2020.1.3,Win32,60
,,6.038999004,,,space,0.2844,21,0,21,0,1,CA30802,2,2020-05-26_09h27.26.708,PVT builder,2020.1.3,Win32,60
,,8.379408357,,,space,0.3064,22,0,22,0,1,CA30802,2,2020-05-26_09h27.26.708,PVT builder,2020.1.3,Win32,60
,,9.823313216,,,space,0.2708,23,0,23,0,1,CA30802,2,2020-05-26_09h27.26.708,PVT builder,2020.1.3,Win32,60
,,8.061877847,,,space,0.4557,24,0,24,0,1,CA30802,2,2020-05-26_09h27.26.708,PVT builder,2020.1.3,Win32,60
,,8.28987475,,,space,0.2519,25,0,25,0,1,CA30802,2,2020-05-26_09h27.26.708,PVT builder,2020.1.3,Win32,60
,,4.716089135,,,space,0.2597,26,0,26,0,1,CA30802,2,2020-05-26_09h27.26.708,PVT builder,2020.1.3,Win32,60
,,2.452118538,,,space,0.2516,27,0,27,0,1,CA30802,2,2020-05-26_09h27.26.708,PVT builder,2020.1.3,Win32,60
,,3.064475048,,,space,0.2668,28,0,28,0,1,CA30802,2,2020-05-26_09h27.26.708,PVT builder,2020.1.3,Win32,60
,,4.911367604,,,space,0.2439,29,0,29,0,1,CA30802,2,2020-05-26_09h27.26.708,PVT builder,2020.1.3,Win32,60
,,3.029183892,"[""space""]",[0.15550000000001773],space,0.2568,30,0,30,0,1,CA30802,2,2020-05-26_09h27.26.708,PVT builder,2020.1.3,Win32,60
,,4.431543518,,,space,0.2492,31,0,31,0,1,CA30802,2,2020-05-26_09h27.26.708,PVT builder,2020.1.3,Win32,60
,,8.035317169,,,space,0.2533,32,0,32,0,1,CA30802,2,2020-05-26_09h27.26.708,PVT builder,2020.1.3,Win32,60
,,6.749243886,,,space,0.2698,33,0,33,0,1,CA30802,2,2020-05-26_09h27.26.708,PVT builder,2020.1.3,Win32,60
,,7.850270813,"[""space""]",[1.2643999999999664],space,0.2998,34,0,34,0,1,CA30802,2,2020-05-26_09h27.26.708,PVT builder,2020.1.3,Win32,60
,,7.517906321,,,space,0.2572,35,0,35,0,1,CA30802,2,2020-05-26_09h27.26.708,PVT builder,2020.1.3,Win32,60
,,8.62167554,,,space,0.2416,36,0,36,0,1,CA30802,2,2020-05-26_09h27.26.708,PVT builder,2020.1.3,Win32,60
,,9.292486768,,,space,0.2368,37,0,37,0,1,CA30802,2,2020-05-26_09h27.26.708,PVT builder,2020.1.3,Win32,60
,,7.468732977,,,space,0.3056,38,0,38,0,1,CA30802,2,2020-05-26_09h27.26.708,PVT builder,2020.1.3,Win32,60
,,7.062903837,,,space,0.2532,39,0,39,0,1,CA30802,2,2020-05-26_09h27.26.708,PVT builder,2020.1.3,Win32,60
,,4.547090413,,,space,0.2663,40,0,40,0,1,CA30802,2,2020-05-26_09h27.26.708,PVT builder,2020.1.3,Win32,60
