Start.keys,Start.rt,Interval_stimulus,key_resp.keys,key_resp.rt,Response.keys,Response.rt,trials.thisRepN,trials.thisTrialN,trials.thisN,trials.thisIndex,trials.ran,"Participant ID (Your initials and the last 5 digits of your phone number, example: JS45323)",Session,date,expName,psychopyVersion,OS,frameRate
space,7.75818,5.605408722,"[""space""]",[3.3355850000007194],space,0.563195,0,0,0,0,1,AT55010,2,2020-05-16_10h25.48.561,PVT builder,2020.1.3,MacIntel,60
,,2.639344165,,,space,0.252435,1,0,1,0,1,AT55010,2,2020-05-16_10h25.48.561,PVT builder,2020.1.3,MacIntel,60
,,6.365668788,"[""space"",""space"",""space"",""space"",""space"",""space"",""space"",""space"",""space"",""space"",""space"",""space"",""space"",""space""]","[0.167170000000624,0.7337750000006054,1.1836849999963306,2.1174449999962235,2.3506649999981164,3.2866099999955622,3.584304999996675,3.8205249999955413,4.10055999999895,4.521804999996675,5.019099999997707,5.233544999995502,5.685249999994994,5.9173549999977695]",space,0.28409,2,0,2,0,1,AT55010,2,2020-05-16_10h25.48.561,PVT builder,2020.1.3,MacIntel,60
,,4.785292482,"[""space"",""space"",""space"",""space"",""space"",""space"",""space"",""space""]","[1.7013299999962328,1.9508249999998952,2.38398999999481,2.620489999993879,3.1171699999977136,3.303619999998773,3.7879749999992782,4.019639999998617]",space,0.239005,3,0,3,0,1,AT55010,2,2020-05-16_10h25.48.561,PVT builder,2020.1.3,MacIntel,60
,,5.369981436,"[""space"",""space"",""space"",""space"",""space"",""space"",""space"",""space"",""space"",""space"",""space"",""space"",""space"",""space"",""space"",""space"",""space"",""space"",""space"",""space"",""space"",""space"",""space""]","[0.11758999999437947,0.5556499999947846,0.7871349999986705,1.0175149999995483,1.250434999994468,1.5004750000007334,1.7193149999948218,1.9497950000004494,2.150709999994433,2.3505999999979394,2.533789999994042,2.7172999999966123,3.084369999996852,3.2836849999948754,3.48713499999576,3.7678299999970477,3.950809999994817,4.150864999995974,4.338904999996885,4.550939999993716,4.750849999996717,4.950294999995094,5.157069999993837]",space,0.2031,4,0,4,0,1,AT55010,2,2020-05-16_10h25.48.561,PVT builder,2020.1.3,MacIntel,60
,,7.582040868,"[""space"",""space"",""space"",""space"",""space"",""space"",""space"",""space"",""space"",""space"",""space"",""space"",""space"",""space"",""space"",""space"",""space"",""space"",""space"",""space"",""space"",""space"",""space"",""space"",""space"",""space"",""space"",""space"",""space"",""space"",""space"",""space"",""space"",""space"",""space"",""space"",""space""]","[0.1837050000031013,0.43396999999822583,0.6826450000007753,0.9007649999985006,1.1195799999986775,1.3667399999976624,1.6006849999976112,1.8202200000014273,2.033609999998589,2.2668699999994715,2.485869999996794,2.7162499999976717,2.9372999999977765,3.150340000000142,3.350720000002184,3.5561349999989034,3.7503149999974994,3.9378950000027544,4.118679999999586,4.3051049999994575,4.487704999999551,4.672375000001921,4.868605000003299,5.050389999996696,5.233775000000605,5.41846500000247,5.600765000002866,5.787049999998999,5.987135000003036,6.166729999997187,6.350579999998445,6.550454999996873,6.7513400000025285,6.966639999998733,7.149499999999534,7.3502450000014505,7.554714999998396]",space,0.16969,5,0,5,0,1,AT55010,2,2020-05-16_10h25.48.561,PVT builder,2020.1.3,MacIntel,60
,,3.518701969,"[""space"",""space"",""space"",""space"",""space"",""space"",""space"",""space"",""space"",""space"",""space"",""space"",""space"",""space"",""space"",""space"",""space""]","[0.04914999999891734,0.2829649999985122,0.4690699999991921,0.683389999998326,0.8821349999998347,1.1011799999978393,1.3187550000002375,1.537529999994149,1.7667699999947217,1.9995449999987613,2.2000649999972666,2.3833249999952386,2.5658299999995506,2.7729249999974854,2.9995749999943655,3.216739999996207,3.3990799999955925]",space,0.099935,6,0,6,0,1,AT55010,2,2020-05-16_10h25.48.561,PVT builder,2020.1.3,MacIntel,60
,,9.736294188,"[""space"",""space"",""space"",""space"",""space"",""space"",""space"",""space"",""space"",""space"",""space"",""space"",""space"",""space"",""space"",""space"",""space"",""space"",""space"",""space"",""space"",""space"",""space"",""space"",""space"",""space"",""space"",""space"",""space"",""space"",""space"",""space"",""space"",""space"",""space"",""space"",""space"",""space"",""space"",""space"",""space"",""space"",""space"",""space""]","[0.05151499999919906,0.25050999999803025,0.4678399999975227,0.6845699999976205,0.8845599999986007,1.0841999999975087,1.3002699999997276,1.5176999999966938,1.7344349999984843,1.9350199999971665,2.134200000000419,2.337714999994205,2.551079999997455,2.76784499999485,2.95649499999854,3.167409999994561,3.3668949999992037,3.584339999993972,3.7704949999970268,3.984359999994922,4.172054999995453,4.384879999997793,4.617679999995744,4.854559999999765,5.073739999999816,5.301229999997304,5.503784999993513,5.71762999999919,5.934750000000349,6.170539999999164,6.40251499999431,6.617954999994254,6.834189999994123,7.050934999999299,7.267634999996517,7.520529999994324,7.784399999996822,8.02127499999915,8.251149999996414,8.452764999994542,8.840149999996356,9.068409999999858,9.317514999995183,9.540134999995644]",space,0.03902,7,0,7,0,1,AT55010,2,2020-05-16_10h25.48.561,PVT builder,2020.1.3,MacIntel,60
,,6.431097167,"[""space"",""space"",""space"",""space"",""space"",""space"",""space"",""space"",""space"",""space"",""space"",""space"",""space"",""space"",""space"",""space"",""space"",""space"",""space"",""space"",""space"",""space"",""space"",""space"",""space""]","[0.02530000000115251,0.28434500000003027,0.5344750000003842,0.7843749999956344,1.0676299999977346,1.5534199999965494,1.7862549999990733,2.0511249999981374,2.301455000000715,2.554165000001376,2.8180999999967753,3.088530000000901,3.338595000001078,3.6006999999954132,3.8547249999974156,4.086484999999811,4.334374999998545,4.601004999996803,4.86757999999827,5.12187499999709,5.3887699999977485,5.61788499999966,5.817749999994703,6.034609999995155,6.254074999997101]",space,0.050445,8,0,8,0,1,AT55010,2,2020-05-16_10h25.48.561,PVT builder,2020.1.3,MacIntel,60
,,6.452981657,"[""space"",""space"",""space"",""space"",""space"",""space"",""space"",""space"",""space"",""space"",""space"",""space"",""space"",""space"",""space"",""space""]","[3.5372150000039255,3.7504450000051293,3.9349399999991874,4.115989999998419,4.3008650000047055,4.487505000004603,4.666165000002366,4.833610000001499,5.003725000002305,5.199939999998605,5.369024999999965,5.550085000002582,5.7337249999982305,5.918150000004971,6.100350000000617,6.283710000003339]",space,0.01824,9,0,9,0,1,AT55010,2,2020-05-16_10h25.48.561,PVT builder,2020.1.3,MacIntel,60
,,2.653383881,,,space,0.41716,10,0,10,0,1,AT55010,2,2020-05-16_10h25.48.561,PVT builder,2020.1.3,MacIntel,60
,,5.526361861,"[""space"",""space"",""space"",""space"",""space"",""space"",""space""]","[2.019395000002987,3.071380000001227,3.317705000001297,4.3214200000002165,4.850619999997434,5.300804999998945,5.483229999998002]",space,0.151865,11,0,11,0,1,AT55010,2,2020-05-16_10h25.48.561,PVT builder,2020.1.3,MacIntel,60
,,8.714772524,"[""space"",""space"",""space"",""space"",""space"",""space"",""space"",""space"",""space"",""space"",""space"",""space"",""space"",""space"",""space"",""space"",""space"",""space"",""space"",""space"",""space"",""space"",""space"",""space""]","[3.8777100000006612,4.066720000002533,4.25085499999841,4.417464999998629,4.583729999998468,4.754200000003038,4.916890000000421,5.083575000004203,5.249900000002526,5.417205000005197,5.568254999998317,5.750330000002577,5.903689999999187,6.066259999999602,6.221675000000687,6.383805000004941,6.5343900000007125,6.832890000005136,7.621680000003835,7.7891750000053435,7.9670550000009825,8.117350000000442,8.283595000000787,8.449424999998882]",space,0.13411,12,0,12,0,1,AT55010,2,2020-05-16_10h25.48.561,PVT builder,2020.1.3,MacIntel,60
,,6.385836518,"[""space"",""space"",""space"",""space"",""space"",""space""]","[5.552575000001525,5.719825000000128,5.884705000004033,6.038919999999052,6.184959999998682,6.333075000002282]",space,0.101975,13,0,13,0,1,AT55010,2,2020-05-16_10h25.48.561,PVT builder,2020.1.3,MacIntel,60
,,4.934921674,"[""space"",""space"",""space"",""space"",""space"",""space"",""space"",""space"",""space"",""space"",""space""]","[3.3849499999996624,3.557184999997844,3.7056699999957345,3.8681849999993574,4.034394999995129,4.186414999996487,4.26722499999596,4.352359999997134,4.51817999999912,4.684495000001334,4.851349999997183]",space,0.106205,14,0,14,0,1,AT55010,2,2020-05-16_10h25.48.561,PVT builder,2020.1.3,MacIntel,60
,,4.653614122,"[""space"",""space"",""space""]","[4.1669849999962025,4.317499999997381,4.474719999998342]",space,0.11932,15,0,15,0,1,AT55010,2,2020-05-16_10h25.48.561,PVT builder,2020.1.3,MacIntel,60
,,8.774264624,"[""space"",""space"",""space"",""space"",""space"",""space"",""space"",""space"",""space"",""space"",""space"",""space"",""space"",""space"",""space"",""space"",""space"",""space"",""space"",""space"",""space"",""space"",""space"",""space""]","[4.686179999996966,4.86641999999847,5.033770000001823,5.188105000001087,5.350659999996424,5.466820000001462,5.650594999999157,5.822204999996757,5.983039999999164,6.133739999997488,6.22127499999624,6.416180000000168,6.601770000001125,6.799739999994927,7.000684999999066,7.18347999999969,7.402624999995169,7.604289999995672,7.799825000001874,7.989349999996193,8.187955000001239,8.366909999997006,8.53516999999556,8.701029999996535]",space,0.101795,16,0,16,0,1,AT55010,2,2020-05-16_10h25.48.561,PVT builder,2020.1.3,MacIntel,60
,,5.395266177,,,space,0.001595,17,0,17,0,1,AT55010,2,2020-05-16_10h25.48.561,PVT builder,2020.1.3,MacIntel,60
,,8.545014545,"[""space"",""space"",""space"",""space"",""space"",""space"",""space"",""space"",""space"",""space"",""space"",""space"",""space"",""space"",""space"",""space"",""space"",""space"",""space"",""space"",""space"",""space""]","[5.234309999999823,5.333355000002484,5.5840900000039255,5.784090000001015,5.983944999999949,6.186139999997977,6.270140000000538,6.516840000003867,6.718254999999772,6.937770000004093,7.150634999998147,7.366950000003271,7.500460000002931,7.600950000000012,7.7341099999975995,7.8030650000000605,7.934225000004517,8.017429999999877,8.150330000004033,8.23356000000058,8.369839999999385,8.455370000003313]",space,0.03432,18,0,18,0,1,AT55010,2,2020-05-16_10h25.48.561,PVT builder,2020.1.3,MacIntel,60
,,9.473414337,"[""space"",""space"",""space"",""space"",""space"",""space"",""space"",""space"",""space"",""space"",""space"",""space"",""space"",""space"",""space"",""space"",""space""]","[1.9507299999968382,5.266304999997374,5.351839999995718,5.966905000001134,6.567064999995637,7.267149999999674,7.583039999997709,7.750099999997474,7.93378500000108,8.116425000000163,8.266434999997728,8.4331749999983,8.600534999997762,8.767084999999497,8.934779999995953,9.251444999994419,9.40638499999477]",space,0.122,19,0,19,0,1,AT55010,2,2020-05-16_10h25.48.561,PVT builder,2020.1.3,MacIntel,60
,,3.197860544,,,space,0.43411,20,0,20,0,1,AT55010,2,2020-05-16_10h25.48.561,PVT builder,2020.1.3,MacIntel,60
,,6.872417371,"[""space"",""space"",""space"",""space"",""space"",""space"",""space""]","[0.556734999998298,4.600290000002133,5.216935000004014,5.484810000001744,5.790560000001278,6.051294999997481,6.6178300000028685]",space,0.050805,21,0,21,0,1,AT55010,2,2020-05-16_10h25.48.561,PVT builder,2020.1.3,MacIntel,60
,,7.713629225,"[""space"",""space"",""space"",""space"",""space"",""space"",""space"",""space"",""space"",""space"",""space"",""space"",""space"",""space"",""space"",""space"",""space"",""space"",""space""]","[0.1299799999978859,2.830664999994042,3.1489650000003166,3.4301849999974365,3.68062999999529,4.263844999994035,4.4466449999963515,4.716829999997572,4.882204999994428,5.180274999998801,5.330744999999297,5.547224999994796,5.746544999994512,5.996824999994715,6.43603499999881,6.683664999996836,6.9640049999943585,7.249029999999038,7.552719999999681]",space,0.150745,22,0,22,0,1,AT55010,2,2020-05-16_10h25.48.561,PVT builder,2020.1.3,MacIntel,60
,,8.909727233,"[""space"",""space"",""space"",""space"",""space"",""space"",""space"",""space"",""space"",""space"",""space"",""space"",""space"",""space"",""space"",""space"",""space"",""space"",""space"",""space"",""space"",""space"",""space""]","[0.11712499999703141,0.45010000000183936,0.684000000001106,0.9507700000031036,1.6340300000010757,2.153924999998708,4.249709999996412,5.7005799999969895,6.300210000001243,6.567349999997532,6.7670500000022,6.939344999998866,7.117055000002438,7.300669999996899,7.4496650000000955,7.55449999999837,7.721649999999499,7.900099999998929,8.068480000001728,8.250339999998687,8.402119999998831,8.584024999996473,8.700259999997797]",space,0.03583,23,0,23,0,1,AT55010,2,2020-05-16_10h25.48.561,PVT builder,2020.1.3,MacIntel,60
,,2.909489511,"[""space"",""space"",""space"",""space""]","[1.0862100000013015,1.6670000000012806,1.9262000000016997,2.8171650000003865]",space,0.234895,24,0,24,0,1,AT55010,2,2020-05-16_10h25.48.561,PVT builder,2020.1.3,MacIntel,60
,,5.041299895,"[""space"",""space"",""space"",""space"",""space"",""space"",""space"",""space"",""space"",""space""]","[0.18934499999886611,1.083070000000589,2.2504400000034366,2.521795000000566,3.4494249999988824,3.7332900000037625,4.000260000000708,4.266309999999066,4.60031500000332,4.88323500000115]",space,0.100515,25,0,25,0,1,AT55010,2,2020-05-16_10h25.48.561,PVT builder,2020.1.3,MacIntel,60
,,3.655708112,"[""space"",""space"",""space"",""space"",""space"",""space"",""space""]","[1.36652000000322,1.8502450000014505,2.520680000001448,2.833810000003723,3.0718350000024657,3.332940000000235,3.5495800000062445]",space,0.07171,26,0,26,0,1,AT55010,2,2020-05-16_10h25.48.561,PVT builder,2020.1.3,MacIntel,60
,,2.861278985,"[""space"",""space"",""space"",""space"",""space"",""space""]","[0.1058000000048196,0.6834350000062841,1.35089500000322,1.9493250000014086,2.4508550000027753,2.6999250000008033]",space,0.05554,27,0,27,0,1,AT55010,2,2020-05-16_10h25.48.561,PVT builder,2020.1.3,MacIntel,60
,,2.102579158,,,space,0.2843,28,0,28,0,1,AT55010,2,2020-05-16_10h25.48.561,PVT builder,2020.1.3,MacIntel,60
,,9.044754744,"[""space"",""space"",""space"",""space"",""space"",""space"",""space"",""space"",""space"",""space"",""space"",""space"",""space"",""space"",""space"",""space"",""space"",""space"",""space"",""space"",""space"",""space"",""space"",""space"",""space"",""space"",""space"",""space"",""space"",""space"",""space"",""space"",""space"",""space"",""space"",""space"",""space"",""space"",""space""]","[1.256165000006149,1.7198950000019977,1.9377950000052806,2.267644999999902,2.4852500000051805,2.6838150000039604,2.9001200000056997,3.0547000000005937,3.2378050000043004,3.449850000004517,3.633830000006128,3.833715000000666,4.01674500000081,4.207215000002179,4.403065000005881,4.600320000005013,4.7865900000033434,4.9858000000022,5.185110000005807,5.36703000000125,5.549595000004047,5.733150000000023,5.917380000006233,6.1167700000005425,6.316340000004857,6.506690000001981,6.699930000002496,6.883735000003071,7.066685000005236,7.255800000006275,7.450205000008282,7.633674999997311,7.850150000005669,8.034869999995863,8.238325000005716,8.452469999996538,8.617369999999937,8.816169999998237,9.000424999998359]",space,0.13567,29,0,29,0,1,AT55010,2,2020-05-16_10h25.48.561,PVT builder,2020.1.3,MacIntel,60
,,2.07376117,,,space,0.33649,30,0,30,0,1,AT55010,2,2020-05-16_10h25.48.561,PVT builder,2020.1.3,MacIntel,60
,,6.234612521,"[""space"",""space"",""space"",""space"",""space"",""space"",""space"",""space"",""space"",""space"",""space"",""space"",""space"",""space"",""space"",""space"",""space""]","[1.6011750000034226,2.1168150000012247,2.8510499999974854,3.0673050000041258,3.2682849999982864,3.4672449999925448,3.6670650000014575,3.85042999999132,4.0388050000037765,4.219379999994999,4.4341199999907985,4.600109999999404,4.799954999994952,4.984179999999469,5.1838949999946635,5.387489999993704,5.571759999991627]",space,0.405275,31,0,31,0,1,AT55010,2,2020-05-16_10h25.48.561,PVT builder,2020.1.3,MacIntel,60
,,7.828915039,,,space,0.46913,32,0,32,0,1,AT55010,2,2020-05-16_10h25.48.561,PVT builder,2020.1.3,MacIntel,60
,,8.248360559,"[""space"",""space"",""space"",""space"",""space"",""space"",""space"",""space"",""space"",""space"",""space"",""space"",""space"",""space"",""space"",""space"",""space"",""space"",""space"",""space"",""space"",""space"",""space"",""space"",""space"",""space"",""space"",""space"",""space"",""space"",""space"",""space"",""space"",""space"",""space"",""space"",""space"",""space""]","[1.6991500000003725,1.9162600000126986,2.115895000009914,2.268030000006547,2.4330450000124983,2.56617499999993,2.7331600000034086,2.9013450000056764,3.0829150000063237,3.2828450000088196,3.4664100000081817,3.6178950000030454,3.7877450000087265,3.9357600000075763,4.116465000013704,4.315760000012233,4.418035000009695,4.648620000007213,4.799840000006952,4.983045000000857,5.148280000008526,5.332490000000689,5.499035000000731,5.665960000013001,5.832890000005136,5.999485000007553,6.166190000003553,6.321520000012242,6.498470000005909,6.6825450000033015,6.853100000007544,7.03253000001132,7.215815000003204,7.386295000003884,7.5510850000137,7.732285000005504,7.916220000013709,8.09951000000001]",space,0.03297,33,0,33,0,1,AT55010,2,2020-05-16_10h25.48.561,PVT builder,2020.1.3,MacIntel,60
,,3.891340964,"[""space"",""space""]","[0.4505100000096718,1.5669350000098348]",space,0.25147,34,0,34,0,1,AT55010,2,2020-05-16_10h25.48.561,PVT builder,2020.1.3,MacIntel,60
,,4.892836237,"[""space"",""space"",""space"",""space"",""space"",""space""]","[3.422470000004978,3.6212050000031013,4.151035000002594,4.367485000009765,4.571830000000773,4.749995000005583]",space,0.05156,35,0,35,0,1,AT55010,2,2020-05-16_10h25.48.561,PVT builder,2020.1.3,MacIntel,60
,,8.684322791,"[""space"",""space"",""space"",""space"",""space"",""space"",""space""]","[6.221765000009327,7.337180000002263,7.550360000008368,7.7223550000053365,8.13361000000441,8.302535000009811,8.500465000004624]",space,0.28377,36,0,36,0,1,AT55010,2,2020-05-16_10h25.48.561,PVT builder,2020.1.3,MacIntel,60
,,5.368778881,"[""space""]",[1.8887899999972433],space,0.35235,37,0,37,0,1,AT55010,2,2020-05-16_10h25.48.561,PVT builder,2020.1.3,MacIntel,60
,,6.990708712,"[""space"",""space"",""space"",""space"",""space"",""space"",""space"",""space"",""space"",""space""]","[4.956695000000764,5.471959999995306,5.656409999995958,5.833350000000792,6.006204999997863,6.1667449999949895,6.337180000002263,6.483615000004647,6.650624999994761,6.833490000004531]",space,0.01979,38,0,38,0,1,AT55010,2,2020-05-16_10h25.48.561,PVT builder,2020.1.3,MacIntel,60
,,9.010856785,"[""space"",""space"",""space"",""space"",""space"",""space"",""space"",""space"",""space"",""space"",""space"",""space"",""space"",""space"",""space"",""space"",""space"",""space"",""space"",""space"",""space"",""space"",""space"",""space"",""space"",""space"",""space"",""space"",""space"",""space"",""space"",""space""]","[3.0053199999965727,3.2004849999939324,3.367450000005192,3.5199850000062725,3.6835100000025705,3.8507249999966007,4.166844999999739,4.900330000004033,5.089875000005122,5.250599999999395,5.400389999995241,5.536875000005239,5.700559999997495,5.8497800000041025,6.217109999997774,6.387505000006058,6.519765000004554,6.683720000000903,6.8336249999993015,7.0002800000074785,7.171335000006366,7.319749999995111,7.500580000007176,7.634420000002137,7.7894649999943795,7.93293999999878,8.100204999995185,8.266680000000633,8.436425000007148,8.59932999999728,8.77276000000711,8.95060999999987]",space,0.11913,39,0,39,0,1,AT55010,2,2020-05-16_10h25.48.561,PVT builder,2020.1.3,MacIntel,60
,,9.15042028,"[""space"",""space"",""space"",""space"",""space"",""space"",""space"",""space"",""space"",""space"",""space"",""space""]","[3.4370300000009593,3.667090000002645,4.2501049999991665,4.581680000002962,5.183790000010049,5.351250000006985,5.517025000008289,6.2570400000113295,6.449870000011288,6.633735000010347,7.833585000000312,8.936509999999544]",space,0.305125,40,0,40,0,1,AT55010,2,2020-05-16_10h25.48.561,PVT builder,2020.1.3,MacIntel,60
,,2.305775231,,,space,0.90515,41,0,41,0,1,AT55010,2,2020-05-16_10h25.48.561,PVT builder,2020.1.3,MacIntel,60
