Start.keys,Start.rt,Interval_stimulus,key_resp.keys,Response.keys,Response.rt,trials.thisRepN,trials.thisTrialN,trials.thisN,trials.thisIndex,trials.ran,"Participant ID (Your initials and the last 5 digits of your phone number, example: JS45323)",Session,date,expName,psychopyVersion,OS,frameRate
space,6.849315,3.531984398,,space,0.631795,0,0,0,0,1,NS40990,2,2020-05-18_17h28.38.861,PVT builder,2020.1.3,Win32,60
,,3.881563342,,space,0.555445,1,0,1,0,1,NS40990,2,2020-05-18_17h28.38.861,PVT builder,2020.1.3,Win32,60
,,3.741018929,,space,0.57206,2,0,2,0,1,NS40990,2,2020-05-18_17h28.38.861,PVT builder,2020.1.3,Win32,60
,,7.894138726,,space,0.38565,3,0,3,0,1,NS40990,2,2020-05-18_17h28.38.861,PVT builder,2020.1.3,Win32,60
,,5.927800006,,space,0.531515,4,0,4,0,1,NS40990,2,2020-05-18_17h28.38.861,PVT builder,2020.1.3,Win32,60
,,9.385978042,,space,0.435615,5,0,5,0,1,NS40990,2,2020-05-18_17h28.38.861,PVT builder,2020.1.3,Win32,60
,,8.939199397,,space,0.43768,6,0,6,0,1,NS40990,2,2020-05-18_17h28.38.861,PVT builder,2020.1.3,Win32,60
,,5.654735428,,space,0.61523,7,0,7,0,1,NS40990,2,2020-05-18_17h28.38.861,PVT builder,2020.1.3,Win32,60
,,4.509198933,,space,0.388815,8,0,8,0,1,NS40990,2,2020-05-18_17h28.38.861,PVT builder,2020.1.3,Win32,60
,,7.93135773,,space,0.452595,9,0,9,0,1,NS40990,2,2020-05-18_17h28.38.861,PVT builder,2020.1.3,Win32,60
,,7.184500698,,space,1.0697,10,0,10,0,1,NS40990,2,2020-05-18_17h28.38.861,PVT builder,2020.1.3,Win32,60
,,5.747593464,,space,0.50505,11,0,11,0,1,NS40990,2,2020-05-18_17h28.38.861,PVT builder,2020.1.3,Win32,60
,,7.406145243,,space,0.336315,12,0,12,0,1,NS40990,2,2020-05-18_17h28.38.861,PVT builder,2020.1.3,Win32,60
,,7.667172781,,space,0.415325,13,0,13,0,1,NS40990,2,2020-05-18_17h28.38.861,PVT builder,2020.1.3,Win32,60
,,5.079371682,,space,0.434795,14,0,14,0,1,NS40990,2,2020-05-18_17h28.38.861,PVT builder,2020.1.3,Win32,60
,,6.913431803,,space,0.385145,15,0,15,0,1,NS40990,2,2020-05-18_17h28.38.861,PVT builder,2020.1.3,Win32,60
,,7.786324693,,space,0.419935,16,0,16,0,1,NS40990,2,2020-05-18_17h28.38.861,PVT builder,2020.1.3,Win32,60
,,4.248877685,,space,0.438255,17,0,17,0,1,NS40990,2,2020-05-18_17h28.38.861,PVT builder,2020.1.3,Win32,60
,,2.657910657,,space,0.418265,18,0,18,0,1,NS40990,2,2020-05-18_17h28.38.861,PVT builder,2020.1.3,Win32,60
,,5.118165289,,space,0.323905,19,0,19,0,1,NS40990,2,2020-05-18_17h28.38.861,PVT builder,2020.1.3,Win32,60
,,6.432060003,,space,0.417605,20,0,20,0,1,NS40990,2,2020-05-18_17h28.38.861,PVT builder,2020.1.3,Win32,60
,,6.428120383,,space,0.36777,21,0,21,0,1,NS40990,2,2020-05-18_17h28.38.861,PVT builder,2020.1.3,Win32,60
,,7.955641584,,space,0.97158,22,0,22,0,1,NS40990,2,2020-05-18_17h28.38.861,PVT builder,2020.1.3,Win32,60
,,3.624300168,,space,0.591085,23,0,23,0,1,NS40990,2,2020-05-18_17h28.38.861,PVT builder,2020.1.3,Win32,60
,,7.560649511,,space,0.40389,24,0,24,0,1,NS40990,2,2020-05-18_17h28.38.861,PVT builder,2020.1.3,Win32,60
,,3.386191296,,space,0.4383,25,0,25,0,1,NS40990,2,2020-05-18_17h28.38.861,PVT builder,2020.1.3,Win32,60
,,2.052203086,,space,0.433315,26,0,26,0,1,NS40990,2,2020-05-18_17h28.38.861,PVT builder,2020.1.3,Win32,60
,,7.922583773,,space,0.352795,27,0,27,0,1,NS40990,2,2020-05-18_17h28.38.861,PVT builder,2020.1.3,Win32,60
,,7.341628737,,space,0.36807,28,0,28,0,1,NS40990,2,2020-05-18_17h28.38.861,PVT builder,2020.1.3,Win32,60
,,4.175877644,,space,0.49805,29,0,29,0,1,NS40990,2,2020-05-18_17h28.38.861,PVT builder,2020.1.3,Win32,60
,,7.854272891,,space,0.45144,30,0,30,0,1,NS40990,2,2020-05-18_17h28.38.861,PVT builder,2020.1.3,Win32,60
,,5.589228849,,space,0.547075,31,0,31,0,1,NS40990,2,2020-05-18_17h28.38.861,PVT builder,2020.1.3,Win32,60
,,8.057945024,,space,0.3992,32,0,32,0,1,NS40990,2,2020-05-18_17h28.38.861,PVT builder,2020.1.3,Win32,60
,,5.334334095,,space,0.60098,33,0,33,0,1,NS40990,2,2020-05-18_17h28.38.861,PVT builder,2020.1.3,Win32,60
,,2.287220706,,space,0.34459,34,0,34,0,1,NS40990,2,2020-05-18_17h28.38.861,PVT builder,2020.1.3,Win32,60
,,3.314709473,,space,0.402215,35,0,35,0,1,NS40990,2,2020-05-18_17h28.38.861,PVT builder,2020.1.3,Win32,60
,,3.885285093,,space,0.43295,36,0,36,0,1,NS40990,2,2020-05-18_17h28.38.861,PVT builder,2020.1.3,Win32,60
,,3.670701036,,space,0.386825,37,0,37,0,1,NS40990,2,2020-05-18_17h28.38.861,PVT builder,2020.1.3,Win32,60
,,4.288608049,,space,0.515725,38,0,38,0,1,NS40990,2,2020-05-18_17h28.38.861,PVT builder,2020.1.3,Win32,60
,,5.290993203,,space,0.3948,39,0,39,0,1,NS40990,2,2020-05-18_17h28.38.861,PVT builder,2020.1.3,Win32,60
,,8.156168933,,space,0.399645,40,0,40,0,1,NS40990,2,2020-05-18_17h28.38.861,PVT builder,2020.1.3,Win32,60
,,8.01133604,,space,0.38559,41,0,41,0,1,NS40990,2,2020-05-18_17h28.38.861,PVT builder,2020.1.3,Win32,60
