Start.keys,Start.rt,Interval_stimulus,key_resp.keys,Response.keys,Response.rt,trials.thisRepN,trials.thisTrialN,trials.thisN,trials.thisIndex,trials.ran,"Participant ID (Your initials and the last 5 digits of your phone number, example: JS45323)",Session,date,expName,psychopyVersion,OS,frameRate,key_resp.rt
space,3.3281,8.361518111,,space,0.3453,0,0,0,0,1,RI53440,1,2020-06-14_15h57.23.064,PVT builder,2020.1.3,Linux armv8l,60,
,,8.755680156,,space,0.3499,1,0,1,0,1,RI53440,1,2020-06-14_15h57.23.064,PVT builder,2020.1.3,Linux armv8l,60,
,,5.424177101,,space,0.3049,2,0,2,0,1,RI53440,1,2020-06-14_15h57.23.064,PVT builder,2020.1.3,Linux armv8l,60,
,,6.502215712,,space,0.3665,3,0,3,0,1,RI53440,1,2020-06-14_15h57.23.064,PVT builder,2020.1.3,Linux armv8l,60,
,,4.623945934,,space,0.6909,4,0,4,0,1,RI53440,1,2020-06-14_15h57.23.064,PVT builder,2020.1.3,Linux armv8l,60,
,,8.034577948,"[""space""]",space,0.3382,5,0,5,0,1,RI53440,1,2020-06-14_15h57.23.064,PVT builder,2020.1.3,Linux armv8l,60,[3.8686999999999756]
,,9.667184182,,space,0.267,6,0,6,0,1,RI53440,1,2020-06-14_15h57.23.064,PVT builder,2020.1.3,Linux armv8l,60,
,,9.49024088,,space,0.2948,7,0,7,0,1,RI53440,1,2020-06-14_15h57.23.064,PVT builder,2020.1.3,Linux armv8l,60,
,,9.50630332,,space,0.286,8,0,8,0,1,RI53440,1,2020-06-14_15h57.23.064,PVT builder,2020.1.3,Linux armv8l,60,
,,6.0625222,,space,0.2699,9,0,9,0,1,RI53440,1,2020-06-14_15h57.23.064,PVT builder,2020.1.3,Linux armv8l,60,
,,7.444194394,"[""space""]",space,0.29,10,0,10,0,1,RI53440,1,2020-06-14_15h57.23.064,PVT builder,2020.1.3,Linux armv8l,60,[2.6454000000001088]
,,9.82001014,"[""space""]",space,0.2697,11,0,11,0,1,RI53440,1,2020-06-14_15h57.23.064,PVT builder,2020.1.3,Linux armv8l,60,[3.9183000000000447]
,,7.116826343,,space,0.3184,12,0,12,0,1,RI53440,1,2020-06-14_15h57.23.064,PVT builder,2020.1.3,Linux armv8l,60,
,,9.991664201,,space,0.2813,13,0,13,0,1,RI53440,1,2020-06-14_15h57.23.064,PVT builder,2020.1.3,Linux armv8l,60,
,,5.006693679,,space,0.315,14,0,14,0,1,RI53440,1,2020-06-14_15h57.23.064,PVT builder,2020.1.3,Linux armv8l,60,
,,7.512178898,,space,0.2437,15,0,15,0,1,RI53440,1,2020-06-14_15h57.23.064,PVT builder,2020.1.3,Linux armv8l,60,
,,4.670141767,,space,0.341,16,0,16,0,1,RI53440,1,2020-06-14_15h57.23.064,PVT builder,2020.1.3,Linux armv8l,60,
,,6.157519024,,space,0.2504,17,0,17,0,1,RI53440,1,2020-06-14_15h57.23.064,PVT builder,2020.1.3,Linux armv8l,60,
,,9.653139649,"[""space""]",space,0.3004,18,0,18,0,1,RI53440,1,2020-06-14_15h57.23.064,PVT builder,2020.1.3,Linux armv8l,60,[5.580699999999979]
,,6.263644001,,space,0.3565,19,0,19,0,1,RI53440,1,2020-06-14_15h57.23.064,PVT builder,2020.1.3,Linux armv8l,60,
,,2.929026719,,space,0.3241,20,0,20,0,1,RI53440,1,2020-06-14_15h57.23.064,PVT builder,2020.1.3,Linux armv8l,60,
,,7.537703742,,space,0.0872,21,0,21,0,1,RI53440,1,2020-06-14_15h57.23.064,PVT builder,2020.1.3,Linux armv8l,60,
,,2.901599137,,space,0.3588,22,0,22,0,1,RI53440,1,2020-06-14_15h57.23.064,PVT builder,2020.1.3,Linux armv8l,60,
,,7.685696528,,space,0.3065,23,0,23,0,1,RI53440,1,2020-06-14_15h57.23.064,PVT builder,2020.1.3,Linux armv8l,60,
,,5.736799745,,space,0.2665,24,0,24,0,1,RI53440,1,2020-06-14_15h57.23.064,PVT builder,2020.1.3,Linux armv8l,60,
,,9.540895384,,space,0.3619,25,0,25,0,1,RI53440,1,2020-06-14_15h57.23.064,PVT builder,2020.1.3,Linux armv8l,60,
,,6.102854015,,space,0.3347,26,0,26,0,1,RI53440,1,2020-06-14_15h57.23.064,PVT builder,2020.1.3,Linux armv8l,60,
,,8.7637587,,space,0.2503,27,0,27,0,1,RI53440,1,2020-06-14_15h57.23.064,PVT builder,2020.1.3,Linux armv8l,60,
,,8.851122079,,space,0.5008,28,0,28,0,1,RI53440,1,2020-06-14_15h57.23.064,PVT builder,2020.1.3,Linux armv8l,60,
,,7.802208251,,space,0.2761,29,0,29,0,1,RI53440,1,2020-06-14_15h57.23.064,PVT builder,2020.1.3,Linux armv8l,60,
,,3.44678223,,space,0.4355,30,0,30,0,1,RI53440,1,2020-06-14_15h57.23.064,PVT builder,2020.1.3,Linux armv8l,60,
,,4.505278156,,space,0.3429,31,0,31,0,1,RI53440,1,2020-06-14_15h57.23.064,PVT builder,2020.1.3,Linux armv8l,60,
,,3.387041837,,space,0.28,32,0,32,0,1,RI53440,1,2020-06-14_15h57.23.064,PVT builder,2020.1.3,Linux armv8l,60,
,,2.835036342,,space,0.3206,33,0,33,0,1,RI53440,1,2020-06-14_15h57.23.064,PVT builder,2020.1.3,Linux armv8l,60,
,,9.547545351,,space,0.2992,34,0,34,0,1,RI53440,1,2020-06-14_15h57.23.064,PVT builder,2020.1.3,Linux armv8l,60,
,,5.336586336,,space,0.2879,35,0,35,0,1,RI53440,1,2020-06-14_15h57.23.064,PVT builder,2020.1.3,Linux armv8l,60,
,,2.174682769,,space,0.2997,36,0,36,0,1,RI53440,1,2020-06-14_15h57.23.064,PVT builder,2020.1.3,Linux armv8l,60,
,,3.237065728,,space,0.3794,37,0,37,0,1,RI53440,1,2020-06-14_15h57.23.064,PVT builder,2020.1.3,Linux armv8l,60,
